wavelength,alpha,energy
9.5000e+02,1.5000e+02,1.3051e+00
9.6000e+02,1.2900e+02,1.2915e+00
9.7000e+02,1.1000e+02,1.2782e+00
9.8000e+02,9.2400e+01,1.2651e+00
9.9000e+02,7.5000e+01,1.2524e+00
1.0000e+03,6.2100e+01,1.2398e+00
1.0100e+03,4.8800e+01,1.2276e+00
1.0200e+03,3.8700e+01,1.2155e+00
1.0300e+03,2.9100e+01,1.2037e+00
1.0400e+03,2.1500e+01,1.1922e+00
1.0500e+03,1.5400e+01,1.1808e+00
1.0600e+03,1.0900e+01,1.1697e+00
1.0700e+03,7.8000e+00,1.1587e+00
1.0800e+03,5.9600e+00,1.1480e+00
1.0900e+03,4.4900e+00,1.1375e+00
1.1000e+03,3.3800e+00,1.1271e+00
1.1100e+03,2.5300e+00,1.1170e+00
1.1200e+03,1.8600e+00,1.1070e+00
1.1300e+03,1.3400e+00,1.0972e+00
1.1400e+03,9.2300e-01,1.0876e+00
1.1500e+03,5.8900e-01,1.0781e+00
1.1600e+03,3.4500e-01,1.0688e+00
1.1700e+03,1.6200e-01,1.0597e+00
1.1800e+03,4.0900e-02,1.0507e+00
1.1900e+03,2.0800e-02,1.0419e+00
1.2000e+03,1.2300e-02,1.0332e+00
1.2100e+03,7.3600e-03,1.0247e+00
1.2200e+03,4.4000e-03,1.0163e+00
1.2300e+03,2.4500e-03,1.0080e+00
1.2400e+03,1.2100e-03,9.9987e-01
1.2500e+03,4.3600e-04,9.9187e-01
1.2600e+03,1.7700e-04,9.8400e-01
1.2700e+03,1.0300e-04,9.7625e-01
1.2800e+03,6.2800e-05,9.6863e-01
1.2900e+03,3.8200e-05,9.6112e-01
1.3000e+03,2.4000e-05,9.5372e-01
1.3100e+03,1.3600e-05,9.4644e-01
1.3200e+03,7.1900e-06,9.3927e-01
1.3300e+03,3.2400e-06,9.3221e-01
1.3400e+03,1.2300e-06,9.2526e-01
1.3500e+03,6.2700e-07,9.1840e-01
